Wavelength 1,Absolute Irradiance 1
194.505,0
194.77,0
195.035,0
195.3,0
195.565,0
195.83,0
196.095,0
196.36,0
196.625,0
196.889,0
197.154,0
197.419,0
197.684,0
197.948,0
198.213,0
198.478,0
198.743,0
199.007,0
199.272,0
199.536,0
199.801,0
200.066,0
200.33,0
200.595,0
200.859,0
201.124,0
201.388,0
201.653,0
201.917,0
202.182,0
202.446,0
202.71,0
202.975,0
203.239,0
203.504,0
203.768,0
204.032,0
204.296,0
204.561,0
204.825,0
205.089,0
205.353,0
205.618,0
205.882,0
206.146,0
206.41,0
206.674,0
206.938,0
207.202,0
207.466,0
207.73,0
207.995,0
208.259,0
208.523,0
208.786,0
209.05,0
209.314,0
209.578,0
209.842,0
210.106,0
210.37,0
210.634,0
210.898,0
211.161,0
211.425,0
211.689,0
211.953,0
212.216,0
212.48,0
212.744,0
213.007,0
213.271,0
213.535,0
213.798,0
214.062,0
214.326,0
214.589,0
214.853,0
215.116,0
215.38,0
215.643,0
215.907,0
216.17,0
216.433,0
216.697,0
216.96,0
217.224,0
217.487,0
217.75,0
218.014,0
218.277,0
218.54,0
218.803,0
219.067,0
219.33,0
219.593,0
219.856,0
220.119,0
220.383,0
220.646,0
220.909,0
221.172,0
221.435,0
221.698,0
221.961,0
222.224,0
222.487,0
222.75,0
223.013,0
223.276,0
223.539,0
223.802,0
224.065,0
224.327,0
224.59,0
224.853,0
225.116,0
225.379,0
225.642,0
225.904,0
226.167,0
226.43,0
226.692,0
226.955,0
227.218,0
227.48,0
227.743,0
228.006,0
228.268,0
228.531,0
228.793,0
229.056,0
229.318,0
229.581,0
229.843,0
230.106,0
230.368,0
230.631,0
230.893,0
231.155,0
231.418,0
231.68,0
231.942,0
232.205,0
232.467,0
232.729,0
232.992,0
233.254,0
233.516,0
233.778,0
234.04,0
234.302,0
234.565,0
234.827,0
235.089,0
235.351,0
235.613,0
235.875,0
236.137,0
236.399,0
236.661,0
236.923,0
237.185,0
237.447,0
237.709,0
237.971,0
238.233,0
238.494,0
238.756,0
239.018,0
239.28,0
239.542,0
239.803,0
240.065,0
240.327,0
240.589,0
240.85,0
241.112,0
241.374,0
241.635,0
241.897,0
242.158,0
242.42,0
242.681,0
242.943,0
243.205,0
243.466,0
243.727,0
243.989,0
244.25,0
244.512,0
244.773,0
245.035,0
245.296,0
245.557,0
245.819,0
246.08,0
246.341,0
246.603,0
246.864,0
247.125,0
247.386,0
247.647,0
247.909,0
248.17,0
248.431,0
248.692,0
248.953,0
249.214,0
249.475,0
249.736,0
249.997,0
250.258,0
250.519,0
250.78,0
251.041,0
251.302,0
251.563,0
251.824,0
252.085,0
252.346,0
252.607,0
252.867,0
253.128,0
253.389,0
253.65,0
253.911,0
254.171,0
254.432,0
254.693,0
254.953,0
255.214,0
255.475,0
255.735,0
255.996,0
256.256,0
256.517,0
256.778,0
257.038,0
257.299,0
257.559,0
257.82,0
258.08,0
258.34,0
258.601,0
258.861,0
259.122,0
259.382,0
259.642,0
259.903,0
260.163,0
260.423,0
260.683,0
260.944,0
261.204,0
261.464,0
261.724,0
261.984,0
262.245,0
262.505,0
262.765,0
263.025,0
263.285,0
263.545,0
263.805,0
264.065,0
264.325,0
264.585,0
264.845,0
265.105,0
265.365,0
265.625,0
265.885,0
266.145,0
266.404,0
266.664,0
266.924,0
267.184,0
267.444,0
267.703,0
267.963,0
268.223,0
268.483,0
268.742,0
269.002,0
269.262,0
269.521,0
269.781,0
270.04,0
270.3,0
270.56,0
270.819,0
271.079,0
271.338,0
271.598,0
271.857,0
272.116,0
272.376,0
272.635,0
272.895,0
273.154,0
273.413,0
273.673,0
273.932,0
274.191,0
274.451,0
274.71,0
274.969,0
275.228,0
275.487,0
275.747,0
276.006,0
276.265,0
276.524,0
276.783,0
277.042,0
277.301,0
277.56,0
277.819,0
278.078,0
278.337,0
278.596,0
278.855,0
279.114,0
279.373,0
279.632,0
279.891,0
280.15,0
280.409,0
280.667,0
280.926,0
281.185,0
281.444,0
281.703,0
281.961,0
282.22,0
282.479,0
282.737,0
282.996,0
283.255,0
283.513,0
283.772,0
284.03,0
284.289,0
284.547,0
284.806,0
285.065,0
285.323,0
285.581,0
285.84,0
286.098,0
286.357,0
286.615,0
286.873,0
287.132,0
287.39,0
287.649,0
287.907,0
288.165,0
288.423,0
288.682,0
288.94,0
289.198,0
289.456,0
289.714,0
289.972,0
290.231,0
290.489,0
290.747,0
291.005,0
291.263,0
291.521,0
291.779,0
292.037,0
292.295,0
292.553,0
292.811,0
293.069,0
293.327,0
293.585,0
293.842,0
294.1,0
294.358,0
294.616,0
294.874,0
295.131,0
295.389,0
295.647,0
295.905,0
296.162,0
296.42,0
296.678,0
296.935,0
297.193,0
297.451,0
297.708,0
297.966,0
298.223,0
298.481,0
298.738,0
298.996,0
299.253,0
299.511,0
299.768,0
300.026,0
300.283,0
300.54,0
300.798,0
301.055,0
301.312,0
301.57,0
301.827,0
302.084,0
302.342,0
302.599,0
302.856,0
303.113,0
303.37,0
303.627,0
303.885,0
304.142,0
304.399,0
304.656,0
304.913,0
305.17,0
305.427,0
305.684,0
305.941,0
306.198,0
306.455,0
306.712,0
306.969,0
307.226,0
307.483,0
307.739,0
307.996,0
308.253,0
308.51,0
308.767,0
309.023,0
309.28,0
309.537,0
309.794,0
310.05,0
310.307,0
310.564,0
310.82,0
311.077,0
311.333,0
311.59,0
311.847,0
312.103,0
312.36,0
312.616,0
312.873,0
313.129,0
313.385,0
313.642,0
313.898,0
314.155,0
314.411,0
314.667,0
314.924,0
315.18,0
315.436,0
315.693,0
315.949,0
316.205,0
316.461,0
316.718,0
316.974,0
317.23,0
317.486,0
317.742,0
317.998,0
318.254,0
318.51,0
318.766,0
319.022,0
319.279,0
319.534,0
319.79,0
320.046,0
320.302,0
320.558,0
320.814,0
321.07,0
321.326,0
321.582,0
321.838,0
322.093,0
322.349,0
322.605,0
322.861,0
323.116,0
323.372,0
323.628,0
323.884,0
324.139,0
324.395,0
324.65,0
324.906,0
325.162,0
325.417,0
325.673,0
325.928,0
326.184,0
326.439,0
326.695,0
326.95,0
327.206,0
327.461,0
327.716,0
327.972,0
328.227,0
328.482,0
328.738,0
328.993,0
329.248,0
329.504,0
329.759,0
330.014,0
330.269,0
330.525,0
330.78,0
331.035,0
331.29,0
331.545,0
331.8,0
332.055,0
332.31,0
332.565,0
332.82,0
333.075,0
333.33,0
333.585,0
333.84,0
334.095,0
334.35,0
334.605,0
334.86,0
335.115,0
335.37,0
335.624,0
335.879,0
336.134,0
336.389,0
336.643,0
336.898,0
337.153,0
337.408,0
337.662,0
337.917,0
338.171,0
338.426,0
338.681,0
338.935,0
339.19,0
339.444,0
339.699,0
339.953,0
340.208,0
340.462,0
340.717,0
340.971,0
341.226,0
341.48,0
341.734,0
341.989,0
342.243,0
342.497,0
342.752,0
343.006,0
343.26,0
343.514,0
343.769,0
344.023,0
344.277,0
344.531,0
344.785,0
345.039,0
345.293,0
345.548,0
345.802,0
346.056,0
346.31,0
346.564,0
346.818,0
347.072,0
347.326,0
347.58,0
347.833,0
348.087,0
348.341,0
348.595,0
348.849,0
349.103,0
349.357,0
349.61,0
349.864,0
350.118,0.06
350.372,0.06
350.625,0.06
350.879,0.05
351.133,0.06
351.386,0.05
351.64,0.05
351.894,0.06
352.147,0.05
352.401,0.06
352.654,0.04
352.908,0.05
353.161,0.06
353.415,0.04
353.668,0.04
353.922,0.04
354.175,0.03
354.429,0.04
354.682,0.04
354.935,0.04
355.189,0.04
355.442,0.04
355.696,0.04
355.949,0.04
356.202,0.04
356.455,0.04
356.709,0.04
356.962,0.04
357.215,0.04
357.468,0.04
357.722,0.04
357.975,0.05
358.228,0.05
358.481,0.05
358.734,0.05
358.987,0.05
359.24,0.05
359.493,0.06
359.746,0.06
359.999,0.06
360.252,0.06
360.505,0.07
360.758,0.07
361.011,0.08
361.264,0.08
361.517,0.08
361.77,0.07
362.023,0.07
362.276,0.06
362.529,0.05
362.781,0.05
363.034,0.03
363.287,0.02
363.54,0.03
363.792,0.02
364.045,0.01
364.298,0.02
364.55,0.02
364.803,0.01
365.056,0.02
365.308,0.01
365.561,0.01
365.814,0.01
366.066,0.01
366.319,0.01
366.571,0.01
366.824,0.02
367.076,0.03
367.329,0.02
367.581,0.04
367.834,0.05
368.086,0.06
368.338,0.07
368.591,0.08
368.843,0.08
369.096,0.08
369.348,0.09
369.6,0.09
369.852,0.09
370.105,0.09
370.357,0.1
370.609,0.1
370.861,0.09
371.114,0.09
371.366,0.09
371.618,0.09
371.87,0.09
372.122,0.08
372.374,0.08
372.626,0.09
372.878,0.1
373.13,0.09
373.383,0.08
373.635,0.09
373.887,0.09
374.138,0.08
374.39,0.08
374.642,0.08
374.894,0.08
375.146,0.08
375.398,0.07
375.65,0.07
375.902,0.08
376.154,0.08
376.405,0.08
376.657,0.09
376.909,0.09
377.161,0.08
377.412,0.08
377.664,0.09
377.916,0.09
378.167,0.08
378.419,0.1
378.671,0.11
378.922,0.1
379.174,0.11
379.426,0.11
379.677,0.1
379.929,0.11
380.18,0.11
380.432,0.1
380.683,0.11
380.935,0.1
381.186,0.1
381.437,0.11
381.689,0.11
381.94,0.1
382.192,0.09
382.443,0.09
382.694,0.1
382.946,0.08
383.197,0.09
383.448,0.08
383.699,0.08
383.951,0.08
384.202,0.07
384.453,0.08
384.704,0.09
384.955,0.09
385.207,0.1
385.458,0.1
385.709,0.09
385.96,0.09
386.211,0.09
386.462,0.07
386.713,0.07
386.964,0.08
387.215,0.08
387.466,0.09
387.717,0.09
387.968,0.08
388.219,0.1
388.47,0.1
388.721,0.1
388.972,0.09
389.222,0.09
389.473,0.09
389.724,0.08
389.975,0.07
390.226,0.07
390.476,0.07
390.727,0.07
390.978,0.07
391.228,0.07
391.479,0.07
391.73,0.07
391.98,0.08
392.231,0.08
392.482,0.07
392.732,0.07
392.983,0.08
393.233,0.08
393.484,0.08
393.734,0.08
393.985,0.09
394.235,0.1
394.486,0.09
394.736,0.1
394.987,0.09
395.237,0.08
395.487,0.1
395.738,0.1
395.988,0.09
396.238,0.1
396.489,0.1
396.739,0.09
396.989,0.1
397.24,0.1
397.49,0.09
397.74,0.09
397.99,0.09
398.24,0.1
398.49,0.1
398.741,0.09
398.991,0.09
399.241,0.08
399.491,0.08
399.741,0.08
399.991,0.07
400.241,0.08
400.491,0.09
400.741,0.08
400.991,0.08
401.241,0.09
401.491,0.06
401.741,0.03
401.991,0
402.241,
402.49,
402.74,
402.99,
403.24,
403.49,
403.739,
403.989,
404.239,
404.489,
404.738,
404.988,
405.238,
405.487,
405.737,
405.986,
406.236,
406.486,
406.735,
406.985,
407.234,
407.484,
407.733,0.01
407.982,0.03
408.232,0.05
408.481,0.06
408.731,0.07
408.98,0.08
409.229,0.08
409.479,0.08
409.728,0.09
409.977,0.11
410.227,0.12
410.476,0.13
410.725,0.14
410.974,0.13
411.223,0.15
411.473,0.14
411.722,0.15
411.971,0.16
412.22,0.16
412.469,0.17
412.718,0.19
412.967,0.19
413.216,0.2
413.465,0.19
413.714,0.19
413.963,0.2
414.212,0.2
414.461,0.21
414.71,0.23
414.959,0.23
415.208,0.24
415.457,0.25
415.706,0.26
415.955,0.27
416.204,0.3
416.452,0.31
416.701,0.35
416.95,0.35
417.199,0.36
417.447,0.36
417.696,0.39
417.945,0.4
418.193,0.45
418.442,0.48
418.691,0.49
418.939,0.5
419.188,0.54
419.437,0.59
419.685,0.59
419.934,0.65
420.182,0.67
420.431,0.71
420.679,0.73
420.928,0.77
421.176,0.82
421.424,0.86
421.673,0.88
421.921,0.93
422.17,0.98
422.418,1.06
422.666,1.08
422.915,1.11
423.163,1.23
423.411,1.29
423.66,1.33
423.908,1.38
424.156,1.45
424.404,1.56
424.652,1.58
424.901,1.71
425.149,1.76
425.397,1.83
425.645,1.98
425.893,2.07
426.141,2.11
426.389,2.27
426.637,2.27
426.885,2.53
427.133,2.5
427.381,2.75
427.629,2.84
427.877,2.95
428.125,3.13
428.373,3.26
428.621,3.5
428.869,3.52
429.117,3.61
429.364,3.83
429.612,4.13
429.86,4.24
430.108,4.49
430.356,4.64
430.603,4.83
430.851,5.23
431.099,5.27
431.346,5.33
431.594,5.77
431.842,6.1
432.089,6.41
432.337,6.47
432.585,6.74
432.832,6.96
433.08,7.09
433.327,7.03
433.575,7.31
433.822,7.75
434.07,7.97
434.317,8.12
434.565,8.4
434.812,8.94
435.059,9.57
435.307,9.98
435.554,10.26
435.801,10.44
436.049,11.43
436.296,11.59
436.543,12.33
436.791,12.86
437.038,13.08
437.285,13.45
437.532,13.95
437.78,14.88
438.027,15.91
438.274,16.03
438.521,16.41
438.768,17.71
439.015,18.32
439.262,19.39
439.509,19.47
439.756,20.85
440.003,21.25
440.25,21.44
440.497,23.03
440.744,24.26
440.991,24.95
441.238,24.72
441.485,26.57
441.732,26.23
441.979,27.97
442.226,28.17
442.473,29.23
442.72,30.63
442.966,31.05
443.213,32.51
443.46,33.65
443.707,33.84
443.953,35.98
444.2,36.83
444.447,38.46
444.693,38.02
444.94,39.88
445.187,41.42
445.433,41.43
445.68,43.72
445.926,44.84
446.173,46.7
446.42,47.31
446.666,49.46
446.913,50.39
447.159,52.79
447.406,51.6
447.652,52.9
447.898,56
448.145,55.65
448.391,58.23
448.638,60.32
448.884,61.11
449.13,62.5
449.377,65.23
449.623,65.41
449.869,66.65
450.115,68.59
450.362,71.68
450.608,72.54
450.854,74.05
451.1,75.48
451.346,76.75
451.593,78.94
451.839,80.04
452.085,81.06
452.331,81.98
452.577,83.57
452.823,84.81
453.069,85.27
453.315,84.27
453.561,88.55
453.807,86.03
454.053,88.84
454.299,86.93
454.545,89.2
454.791,86.71
455.037,88.78
455.283,88.92
455.528,90.56
455.774,91.28
456.02,89.23
456.266,88.55
456.512,88.24
456.757,90.54
457.003,90.28
457.249,88.84
457.495,88.7
457.74,86.86
457.986,84.51
458.231,84.26
458.477,83.46
458.723,82.74
458.968,81.35
459.214,80.08
459.459,78.34
459.705,77.74
459.95,76.52
460.196,75.71
460.441,74.25
460.687,73.24
460.932,70.85
461.178,68.47
461.423,68.88
461.669,65.64
461.914,62.87
462.159,63.02
462.405,59.85
462.65,58.9
462.895,59.64
463.14,56.53
463.386,54.58
463.631,54.04
463.876,52.14
464.121,51.91
464.366,50.72
464.612,49.49
464.857,48.19
465.102,47.24
465.347,44.84
465.592,43.71
465.837,43.72
466.082,42.26
466.327,41.08
466.572,40.14
466.817,40.6
467.062,39.08
467.307,37.76
467.552,37.05
467.797,35.85
468.042,35.81
468.287,35.27
468.532,33.58
468.776,33.64
469.021,33.04
469.266,32.02
469.511,31.61
469.756,31.66
470,30.11
470.245,29.94
470.49,29.36
470.734,28.24
470.979,28.19
471.224,27.75
471.468,27.05
471.713,26.22
471.958,26.3
472.202,25.68
472.447,24.77
472.691,24.47
472.936,23.78
473.18,23.61
473.425,23.03
473.669,21.9
473.914,21.83
474.158,20.8
474.402,20.74
474.647,20.61
474.891,20.09
475.136,19.09
475.38,18.81
475.624,18.32
475.868,17.91
476.113,17.5
476.357,16.87
476.601,16.64
476.845,15.92
477.09,15.44
477.334,15.03
477.578,14.68
477.822,14.34
478.066,13.96
478.31,13.61
478.554,13.07
478.799,12.79
479.043,12.38
479.287,11.99
479.531,11.62
479.775,11.3
480.019,11.07
480.263,10.66
480.507,10.41
480.75,10.07
480.994,9.85
481.238,9.54
481.482,9.37
481.726,8.88
481.97,8.73
482.214,8.47
482.457,8.12
482.701,7.92
482.945,7.72
483.189,7.51
483.432,7.4
483.676,7.04
483.92,6.77
484.163,6.54
484.407,6.36
484.651,6.13
484.894,5.94
485.138,5.83
485.381,5.7
485.625,5.51
485.868,5.31
486.112,5.2
486.355,4.98
486.599,4.88
486.842,4.7
487.086,4.63
487.329,4.43
487.573,4.34
487.816,4.2
488.059,4.15
488.303,3.92
488.546,3.89
488.789,3.78
489.033,3.69
489.276,3.61
489.519,3.5
489.762,3.46
490.005,3.35
490.249,3.29
490.492,3.19
490.735,3.08
490.978,3.03
491.221,2.95
491.464,2.84
491.707,2.82
491.95,2.76
492.194,2.69
492.437,2.61
492.68,2.55
492.923,2.49
493.165,2.39
493.408,2.36
493.651,2.26
493.894,2.24
494.137,2.16
494.38,2.12
494.623,2.06
494.866,1.99
495.109,1.94
495.351,1.85
495.594,1.82
495.837,1.76
496.08,1.72
496.322,1.68
496.565,1.62
496.808,1.59
497.05,1.56
497.293,1.51
497.536,1.48
497.778,1.42
498.021,1.39
498.263,1.37
498.506,1.33
498.749,1.3
498.991,1.3
499.234,1.26
499.476,1.22
499.718,1.21
499.961,1.2
500.203,1.17
500.446,1.16
500.688,1.13
500.93,1.1
501.173,1.08
501.415,1.07
501.657,1.04
501.9,1.02
502.142,1
502.384,0.98
502.627,0.96
502.869,0.94
503.111,0.91
503.353,0.91
503.595,0.88
503.837,0.86
504.08,0.84
504.322,0.82
504.564,0.81
504.806,0.79
505.048,0.77
505.29,0.76
505.532,0.74
505.774,0.71
506.016,0.7
506.258,0.69
506.5,0.68
506.742,0.67
506.984,0.65
507.225,0.65
507.467,0.64
507.709,0.62
507.951,0.61
508.193,0.6
508.435,0.58
508.676,0.56
508.918,0.55
509.16,0.54
509.401,0.53
509.643,0.52
509.885,0.5
510.126,0.5
510.368,0.49
510.61,0.48
510.851,0.47
511.093,0.46
511.334,0.46
511.576,0.45
511.818,0.43
512.059,0.43
512.301,0.42
512.542,0.4
512.783,0.39
513.025,0.39
513.266,0.38
513.508,0.36
513.749,0.35
513.99,0.34
514.232,0.34
514.473,0.32
514.714,0.31
514.956,0.31
515.197,0.29
515.438,0.29
515.679,0.28
515.921,0.28
516.162,0.27
516.403,0.26
516.644,0.26
516.885,0.26
517.126,0.24
517.367,0.24
517.608,0.24
517.85,0.23
518.091,0.23
518.332,0.22
518.573,0.23
518.814,0.23
519.055,0.23
519.295,0.21
519.536,0.21
519.777,0.21
520.018,0.21
520.259,0.21
520.5,0.2
520.741,0.2
520.982,0.2
521.222,0.19
521.463,0.18
521.704,0.18
521.945,0.17
522.185,0.17
522.426,0.16
522.667,0.15
522.907,0.16
523.148,0.16
523.389,0.15
523.629,0.14
523.87,0.14
524.11,0.14
524.351,0.14
524.591,0.14
524.832,0.13
525.072,0.13
525.313,0.13
525.553,0.12
525.794,0.12
526.034,0.12
526.275,0.11
526.515,0.11
526.755,0.11
526.996,0.11
527.236,0.1
527.476,0.1
527.717,0.09
527.957,0.09
528.197,0.09
528.437,0.09
528.678,0.09
528.918,0.09
529.158,0.09
529.398,0.09
529.638,0.08
529.878,0.08
530.119,0.08
530.359,0.08
530.599,0.08
530.839,0.07
531.079,0.06
531.319,0.07
531.559,0.07
531.799,0.07
532.039,0.06
532.279,0.06
532.518,0.05
532.758,0.05
532.998,0.05
533.238,0.04
533.478,0.04
533.718,0.04
533.958,0.03
534.197,0.02
534.437,0.02
534.677,0.01
534.917,0
535.156,
535.396,
535.636,
535.875,
536.115,
536.355,
536.594,
536.834,
537.073,
537.313,
537.552,
537.792,
538.031,
538.271,
538.51,
538.75,
538.989,
539.228,
539.468,
539.707,
539.947,
540.186,
540.425,
540.664,
540.904,
541.143,
541.382,
541.621,
541.861,
542.1,
542.339,
542.578,
542.817,
543.056,
543.295,
543.534,
543.773,
544.012,
544.251,
544.49,
544.729,
544.968,
545.207,
545.446,
545.685,
545.924,
546.163,
546.401,
546.64,
546.879,
547.118,
547.357,
547.595,
547.834,
548.073,
548.311,
548.55,
548.789,
549.027,
549.266,
549.504,
549.743,
549.982,
550.22,
550.459,
550.697,
550.936,
551.174,
551.412,
551.651,
551.889,
552.128,
552.366,
552.604,
552.843,
553.081,
553.319,
553.558,
553.796,
554.034,
554.272,
554.51,
554.749,
554.987,
555.225,
555.463,
555.701,
555.939,
556.177,
556.415,
556.653,
556.891,
557.129,
557.367,
557.605,
557.843,
558.081,
558.319,0
558.557,0
558.795,0.01
559.032,0.01
559.27,0.01
559.508,0.02
559.746,0.02
559.984,0.03
560.221,0.03
560.459,0.02
560.697,0.03
560.934,0.03
561.172,0.03
561.41,0.03
561.647,0.03
561.885,0.03
562.123,0.04
562.36,0.04
562.598,0.03
562.835,0.03
563.073,0.03
563.31,0.04
563.548,0.04
563.785,0.04
564.023,0.04
564.26,0.04
564.498,0.04
564.735,0.04
564.972,0.04
565.21,0.04
565.447,0.04
565.684,0.04
565.922,0.04
566.159,0.04
566.396,0.04
566.633,0.04
566.871,0.03
567.108,0.03
567.345,0.02
567.582,0.02
567.819,0.01
568.056,0.01
568.293,0.01
568.531,0
568.768,0.01
569.005,0
569.242,0
569.479,0
569.716,0
569.953,0
570.19,0
570.427,0
570.663,0
570.9,0
571.137,0
571.374,0
571.611,0
571.848,0
572.085,0.01
572.321,0.01
572.558,0.01
572.795,0.01
573.032,0.01
573.268,0.01
573.505,0.01
573.742,0
573.978,
574.215,
574.452,
574.688,
574.925,
575.161,
575.398,
575.634,
575.871,
576.107,
576.344,
576.58,
576.817,
577.053,
577.29,
577.526,
577.762,
577.999,
578.235,
578.471,
578.708,
578.944,
579.18,
579.416,
579.652,
579.889,
580.125,
580.361,
580.597,
580.833,
581.069,
581.305,
581.541,
581.778,
582.014,
582.25,
582.486,
582.721,
582.957,
583.193,
583.429,
583.665,
583.901,
584.137,
584.373,
584.609,
584.844,
585.08,
585.316,
585.552,
585.787,
586.023,
586.259,
586.494,
586.73,
586.966,
587.201,
587.437,
587.672,
587.908,
588.143,
588.379,
588.614,
588.85,
589.085,
589.321,
589.556,
589.792,
590.027,
590.262,
590.498,
590.733,
590.968,
591.204,
591.439,
591.674,
591.909,
592.145,
592.38,
592.615,
592.85,
593.085,
593.32,
593.556,
593.791,
594.026,
594.261,
594.496,
594.731,
594.966,
595.201,
595.436,
595.671,
595.906,
596.14,0
596.375,0.01
596.61,0.03
596.845,0.04
597.08,0.04
597.315,0.04
597.549,0.04
597.784,0.04
598.019,0.05
598.254,0.06
598.488,0.07
598.723,0.09
598.958,0.1
599.192,0.12
599.427,0.13
599.662,0.14
599.896,0.15
600.131,0.16
600.365,0.19
600.6,0.21
600.834,0.23
601.069,0.25
601.303,0.27
601.538,0.3
601.772,0.32
602.007,0.36
602.241,0.37
602.476,0.4
602.71,0.42
602.944,0.44
603.179,0.46
603.413,0.49
603.647,0.51
603.882,0.53
604.116,0.54
604.35,0.56
604.584,0.57
604.818,0.59
605.053,0.61
605.287,0.64
605.521,0.64
605.755,0.65
605.989,0.67
606.223,0.68
606.457,0.68
606.691,0.68
606.925,0.66
607.159,0.65
607.393,0.62
607.627,0.54
607.861,0.4
608.095,0.23
608.329,0.02
608.563,
608.797,
609.031,
609.265,
609.499,
609.732,
609.966,
610.2,
610.434,
610.667,
610.901,
611.135,
611.369,
611.602,
611.836,
612.069,
612.303,
612.537,
612.77,
613.004,
613.237,
613.471,
613.704,0.19
613.938,0.47
614.171,0.74
614.405,0.98
614.638,1.2
614.871,1.42
615.105,1.63
615.338,1.83
615.572,2.03
615.805,2.17
616.038,2.34
616.271,2.51
616.505,2.67
616.738,2.85
616.971,2.98
617.204,3.09
617.438,3.22
617.671,3.33
617.904,3.45
618.137,3.55
618.37,3.72
618.603,3.79
618.836,3.94
619.069,4.05
619.302,4.19
619.536,4.27
619.769,4.41
620.001,4.5
620.234,4.65
620.467,4.78
620.7,4.92
620.933,4.98
621.166,5.18
621.399,5.33
621.632,5.39
621.865,5.61
622.098,5.75
622.33,5.84
622.563,6.02
622.796,6.18
623.029,6.3
623.261,6.46
623.494,6.56
623.727,6.83
623.959,6.97
624.192,7.12
624.425,7.29
624.657,7.55
624.89,7.58
625.122,7.77
625.355,7.81
625.588,7.98
625.82,8.16
626.053,8.26
626.285,8.47
626.518,8.58
626.75,8.64
626.982,8.77
627.215,8.77
627.447,8.92
627.68,9.02
627.912,8.97
628.144,9.17
628.377,9.23
628.609,9.22
628.841,9.22
629.073,9.26
629.306,9.29
629.538,9.27
629.77,9.28
630.002,9.35
630.234,9.25
630.467,9.2
630.699,9.17
630.931,9.11
631.163,9.09
631.395,8.89
631.627,8.97
631.859,8.8
632.091,8.73
632.323,8.57
632.555,8.44
632.787,8.36
633.019,8.19
633.251,7.99
633.483,7.87
633.715,7.66
633.946,7.55
634.178,7.35
634.41,7.18
634.642,7
634.874,6.78
635.105,6.51
635.337,6.35
635.569,6.16
635.801,5.92
636.032,5.75
636.264,5.49
636.496,5.28
636.727,5.07
636.959,4.84
637.191,4.64
637.422,4.44
637.654,4.29
637.885,4.16
638.117,3.97
638.348,3.75
638.58,3.62
638.811,3.49
639.043,3.35
639.274,3.22
639.506,3.07
639.737,2.93
639.968,2.81
640.2,2.66
640.431,2.54
640.662,2.46
640.894,2.32
641.125,2.25
641.356,2.15
641.587,2.05
641.819,1.97
642.05,1.88
642.281,1.82
642.512,1.73
642.743,1.66
642.975,1.59
643.206,1.53
643.437,1.47
643.668,1.4
643.899,1.33
644.13,1.25
644.361,1.22
644.592,1.16
644.823,1.13
645.054,1.08
645.285,1.04
645.516,0.99
645.747,0.93
645.978,0.9
646.208,0.85
646.439,0.8
646.67,0.76
646.901,0.73
647.132,0.69
647.362,0.66
647.593,0.61
647.824,0.56
648.055,0.53
648.285,0.51
648.516,0.48
648.747,0.45
648.977,0.43
649.208,0.4
649.439,0.37
649.669,0.35
649.9,0.33
650.13,0.31
650.361,0.28
650.591,0.28
650.822,0.26
651.052,0.25
651.283,0.24
651.513,0.23
651.744,0.2
651.974,0.18
652.204,0.17
652.435,0.16
652.665,0.16
652.896,0.16
653.126,0.15
653.356,0.14
653.586,0.13
653.817,0.12
654.047,0.12
654.277,0.11
654.507,0.11
654.737,0.11
654.968,0.1
655.198,0.1
655.428,0.09
655.658,0.07
655.888,0.07
656.118,0.05
656.348,0.04
656.578,0.05
656.808,0.04
657.038,0.04
657.268,0.04
657.498,0.04
657.728,0.04
657.958,0.04
658.188,0.05
658.418,0.04
658.648,0.04
658.878,0.04
659.107,0.03
659.337,0.03
659.567,0.02
659.797,0.02
660.026,0.01
660.256,0.01
660.486,0.02
660.716,0.03
660.945,0.03
661.175,0.03
661.405,0.02
661.634,0.03
661.864,0.02
662.093,0.02
662.323,0.02
662.552,0.02
662.782,0.01
663.011,0
663.241,0.01
663.47,0
663.7,0.01
663.929,0.01
664.159,0.01
664.388,0.01
664.617,0.01
664.847,0.02
665.076,0.03
665.305,0.02
665.535,0.02
665.764,0.02
665.993,0.03
666.223,0.04
666.452,0.04
666.681,0.03
666.91,0.03
667.139,0.03
667.368,0.03
667.598,0.03
667.827,0.05
668.056,0.04
668.285,0.05
668.514,0.04
668.743,0.04
668.972,0.03
669.201,0.03
669.43,0.03
669.659,0.03
669.888,0.03
670.117,0.03
670.346,0.02
670.575,0.02
670.803,0.03
671.032,0.02
671.261,0.03
671.49,0.04
671.719,0.04
671.948,0.05
672.176,0.05
672.405,0.05
672.634,0.04
672.862,0.04
673.091,0.05
673.32,0.05
673.548,0.06
673.777,0.07
674.006,0.09
674.234,0.08
674.463,0.08
674.691,0.08
674.92,0.08
675.148,0.08
675.377,0.08
675.605,0.07
675.834,0.07
676.062,0.06
676.291,0.05
676.519,0.06
676.747,0.05
676.976,0.05
677.204,0.04
677.433,0.04
677.661,0.03
677.889,0.02
678.117,0.02
678.346,0.02
678.574,0.01
678.802,0
679.03,
679.258,
679.487,
679.715,0
679.943,
680.171,0.01
680.399,0.01
680.627,0.02
680.855,0.03
681.083,0.03
681.311,0.02
681.539,0.03
681.767,0.03
681.995,0.03
682.223,0.03
682.451,0.04
682.679,0.04
682.907,0.03
683.135,0.03
683.362,0.03
683.59,0.04
683.818,0.03
684.046,0.03
684.274,0.03
684.501,0.03
684.729,0.03
684.957,0.03
685.184,0.03
685.412,0.04
685.64,0.03
685.867,0.03
686.095,0.03
686.323,0.03
686.55,0.04
686.778,0.05
687.005,0.05
687.233,0.05
687.46,0.06
687.688,0.07
687.915,0.08
688.143,0.07
688.37,0.05
688.598,0.07
688.825,0.07
689.052,0.07
689.28,0.07
689.507,0.08
689.734,0.08
689.962,0.07
690.189,0.06
690.416,0.06
690.643,0.09
690.871,0.08
691.098,0.06
691.325,0.06
691.552,0.06
691.779,0.06
692.006,0.06
692.234,0.04
692.461,0.05
692.688,0.04
692.915,0.04
693.142,0.06
693.369,0.05
693.596,0.04
693.823,0.04
694.05,0.04
694.277,0.02
694.504,0.01
694.73,0.02
694.957,0.02
695.184,0.02
695.411,0
695.638,0
695.865,0.02
696.091,0.02
696.318,0.01
696.545,0.01
696.772,0
696.998,0
697.225,
697.452,0
697.678,0.01
697.905,0
698.132,0.01
698.358,0.01
698.585,0.02
698.812,0.01
699.038,0.02
699.265,0.03
699.491,0.03
699.718,0.04
699.944,0.03
700.171,0.04
700.397,0.03
700.623,0.04
700.85,0.03
701.076,0.04
701.302,0.04
701.529,0.04
701.755,0.07
701.981,0.07
702.208,0.07
702.434,0.07
702.66,0.07
702.886,0.06
703.113,0.06
703.339,0.05
703.565,0.05
703.791,0.04
704.017,0.03
704.243,0
704.47,0.01
704.696,0.01
704.922,0
705.148,0
705.374,
705.6,
705.826,
706.052,
706.278,
706.504,
706.73,
706.955,
707.181,
707.407,
707.633,
707.859,
708.085,
708.31,
708.536,
708.762,
708.988,
709.213,
709.439,
709.665,
709.89,
710.116,
710.342,
710.567,
710.793,
711.018,
711.244,
711.469,
711.695,
711.92,
712.146,
712.371,
712.597,
712.822,
713.047,
713.273,
713.498,
713.723,
713.949,
714.174,
714.399,
714.625,
714.85,
715.075,
715.3,
715.525,
715.751,
715.976,
716.201,
716.426,
716.651,0.01
716.876,0.05
717.101,0.05
717.326,0.08
717.551,0.09
717.776,0.1
718.001,0.08
718.226,0.08
718.451,0.09
718.676,0.09
718.901,0.1
719.126,0.11
719.351,0.11
719.575,0.09
719.8,0.1
720.025,0.08
720.25,0.08
720.475,0.08
720.699,0.08
720.924,0.09
721.149,0.1
721.374,0.08
721.598,0.06
721.823,0.06
722.048,0.05
722.272,0.04
722.497,0.03
722.721,0.04
722.946,0.04
723.17,0.04
723.395,0.05
723.619,0.05
723.844,0.04
724.068,0.04
724.293,0.05
724.517,0.06
724.742,0.09
724.966,0.1
725.19,0.11
725.415,0.11
725.639,0.11
725.863,0.11
726.088,0.12
726.312,0.12
726.536,0.11
726.761,0.1
726.985,0.1
727.209,0.08
727.433,0.08
727.657,0.09
727.882,0.09
728.106,0.09
728.33,0.11
728.554,0.1
728.778,0.1
729.002,0.1
729.226,0.08
729.45,0.06
729.674,0.04
729.898,0.03
730.122,0.03
730.346,0.04
730.57,0.03
730.794,0.02
731.018,
731.242,0.01
731.465,
731.689,0.01
731.913,0.03
732.137,0.02
732.361,0.01
732.584,0.01
732.808,0
733.032,
733.256,
733.479,
733.703,0
733.927,0.01
734.15,0.01
734.374,0.01
734.597,0.03
734.821,0.02
735.044,0.01
735.268,0.01
735.491,0.05
735.715,0.06
735.938,0.04
736.162,0.06
736.385,0.04
736.609,0.03
736.832,0.04
737.056,0.05
737.279,0.04
737.502,0.05
737.726,0.05
737.949,0.04
738.172,0.03
738.395,0.02
738.619,0.02
738.842,0.03
739.065,0.04
739.288,0.04
739.512,0.04
739.735,0.05
739.958,0.06
740.181,0.04
740.404,0.05
740.627,0.05
740.85,0.04
741.073,0.05
741.296,0.06
741.519,0.08
741.742,0.08
741.965,0.07
742.188,0.08
742.411,0.08
742.634,0.11
742.857,0.13
743.08,0.14
743.303,0.15
743.526,0.17
743.748,0.16
743.971,0.16
744.194,0.14
744.417,0.15
744.639,0.14
744.862,0.13
745.085,0.15
745.308,0.18
745.53,0.19
745.753,0.19
745.976,0.18
746.198,0.18
746.421,0.18
746.643,0.18
746.866,0.18
747.088,0.18
747.311,0.17
747.533,0.15
747.756,0.13
747.978,0.13
748.201,0.11
748.423,0.13
748.646,0.13
748.868,0.13
749.09,0.12
749.313,0.12
749.535,0.13
749.757,0.12
749.98,0.1
750.202,0.12
750.424,0.1
750.647,0.11
750.869,0.09
751.091,0.1
751.313,0.09
751.535,0.09
751.757,0.1
751.98,0.1
752.202,0.11
752.424,0.11
752.646,0.1
752.868,0.1
753.09,0.06
753.312,0.08
753.534,0.09
753.756,0.09
753.978,0.11
754.2,0.1
754.422,0.09
754.644,0.1
754.866,0.09
755.087,0.1
755.309,0.09
755.531,0.1
755.753,0.09
755.975,0.09
756.196,0.08
756.418,0.07
756.64,0.07
756.862,0.07
757.083,0.08
757.305,0.08
757.527,0.1
757.748,0.09
757.97,0.1
758.192,0.09
758.413,0.08
758.635,0.06
758.856,0.05
759.078,0.07
759.299,0.08
759.521,0.09
759.742,0.11
759.964,0.11
760.185,0.12
760.407,0.14
760.628,0.17
760.849,0.17
761.071,0.17
761.292,0.17
761.513,0.17
761.735,0.15
761.956,0.19
762.177,0.2
762.399,0.21
762.62,0.19
762.841,0.18
763.062,0.17
763.283,0.19
763.505,0.18
763.726,0.17
763.947,0.14
764.168,0.12
764.389,0.1
764.61,0.14
764.831,0.14
765.052,0.12
765.273,0.11
765.494,0.11
765.715,0.13
765.936,0.13
766.157,0.13
766.378,0.14
766.599,0.14
766.82,0.12
767.04,0.12
767.261,0.13
767.482,0.14
767.703,0.2
767.924,0.19
768.144,0.21
768.365,0.19
768.586,0.2
768.807,0.22
769.027,0.21
769.248,0.2
769.469,0.2
769.689,0.21
769.91,0.2
770.13,0.21
770.351,0.2
770.572,0.21
770.792,0.2
771.013,0.21
771.233,0.19
771.454,0.19
771.674,0.17
771.895,0.19
772.115,0.2
772.335,0.18
772.556,0.17
772.776,0.17
772.996,0.18
773.217,0.19
773.437,0.2
773.657,0.21
773.878,0.18
774.098,0.15
774.318,0.13
774.538,0.13
774.759,0.12
774.979,0.14
775.199,0.12
775.419,0.12
775.639,0.12
775.859,0.14
776.079,0.15
776.3,0.19
776.52,0.17
776.74,0.18
776.96,0.18
777.18,0.2
777.4,0.21
777.62,0.18
777.839,0.17
778.059,0.15
778.279,0.14
778.499,0.14
778.719,0.13
778.939,0.17
779.159,0.19
779.379,0.18
779.598,0.16
779.818,0.18
780.038,0.18
780.258,0.15
780.477,0.17
780.697,0.18
780.917,0.13
781.136,0.15
781.356,0.13
781.576,0.16
781.795,0.13
782.015,0.1
782.234,0.14
782.454,0.15
782.673,0.15
782.893,0.17
783.112,0.17
783.332,0.18
783.551,0.16
783.771,0.13
783.99,0.16
784.21,0.18
784.429,0.18
784.648,0.18
784.868,0.18
785.087,0.16
785.306,0.13
785.526,0.18
785.745,0.15
785.964,0.19
786.183,0.17
786.402,0.19
786.622,0.19
786.841,0.21
787.06,0.2
787.279,0.18
787.498,0.15
787.717,0.22
787.936,0.23
788.155,0.21
788.375,0.21
788.594,0.17
788.813,0.16
789.032,0.16
789.25,0.18
789.469,0.18
789.688,0.2
789.907,0.2
790.126,0.18
790.345,0.23
790.564,0.16
790.783,0.15
791.002,0.11
791.22,0.14
791.439,0.12
791.658,0.14
791.877,0.17
792.095,0.18
792.314,0.12
792.533,0.14
792.751,0.15
792.97,0.16
793.189,0.17
793.407,0.18
793.626,0.17
793.844,0.14
794.063,0.15
794.282,0.16
794.5,0.14
794.719,0.15
794.937,0.12
795.155,0.13
795.374,0.14
795.592,0.18
795.811,0.16
796.029,0.17
796.247,0.14
796.466,0.15
796.684,0.19
796.902,0.24
797.121,0.22
797.339,0.19
797.557,0.22
797.776,0.21
797.994,0.18
798.212,0.2
798.43,0.17
798.648,0.22
798.866,0.22
799.085,0.21
799.303,0.21
799.521,0.2
799.739,0.19
799.957,0.19
800.175,0.18
800.393,0.15
800.611,0.14
800.829,0.15
801.047,0.12
801.265,0.09
801.483,0.02
801.701,0.01
801.918,0.03
802.136,
802.354,0.03
802.572,0.04
802.79,0.05
803.008,0.05
803.225,0.02
803.443,0.01
803.661,0.04
803.879,0.06
804.096,0.11
804.314,0.15
804.532,0.12
804.749,0.13
804.967,0.16
805.184,0.14
805.402,0.15
805.62,0.2
805.837,0.15
806.055,0.18
806.272,0.17
806.49,0.2
806.707,0.25
806.924,0.25
807.142,0.23
807.359,0.17
807.577,0.19
807.794,0.19
808.011,0.18
808.229,0.19
808.446,0.13
808.663,0.08
808.881,0.05
809.098,0.05
809.315,0.03
809.532,0
809.75,0.04
809.967,0.01
810.184,
810.401,0
810.618,0.01
810.835,0.04
811.052,
811.27,
811.487,
811.704,
811.921,
812.138,
812.355,
812.572,
812.789,
813.005,
813.222,
813.439,
813.656,
813.873,0
814.09,
814.307,
814.523,0.03
814.74,0.1
814.957,0.08
815.174,0.05
815.39,0.01
815.607,0.01
815.824,0.09
816.04,0.06
816.257,0.14
816.474,0.17
816.69,0.15
816.907,0.12
817.123,0.19
817.34,0.12
817.557,0.13
817.773,0.09
817.99,0.05
818.206,0.12
818.422,0.12
818.639,0.14
818.855,0.14
819.072,0.13
819.288,0.16
819.505,0.17
819.721,0.26
819.937,0.25
820.153,0.26
820.37,0.23
820.586,0.23
820.802,0.25
821.019,0.24
821.235,0.31
821.451,0.37
821.667,0.38
821.883,0.37
822.099,0.39
822.316,0.45
822.532,0.45
822.748,0.42
822.964,0.34
823.18,0.35
823.396,0.41
823.612,0.35
823.828,0.24
824.044,0.3
824.26,0.24
824.476,0.3
824.692,0.37
824.907,0.31
825.123,0.33
825.339,0.32
825.555,0.35
825.771,0.31
825.987,0.29
826.202,0.3
826.418,0.27
826.634,0.22
826.85,0.21
827.065,0.23
827.281,0.32
827.497,0.41
827.712,0.51
827.928,0.5
828.144,0.49
828.359,0.56
828.575,0.53
828.79,0.53
829.006,0.47
829.221,0.42
829.437,0.5
829.652,0.44
829.868,0.39
830.083,0.38
830.299,0.49
830.514,0.5
830.73,0.49
830.945,0.54
831.16,0.63
831.376,0.58
831.591,0.6
831.806,0.46
832.022,0.36
832.237,0.3
832.452,0.34
832.667,0.43
832.882,0.42
833.098,0.44
833.313,0.47
833.528,0.53
833.743,0.51
833.958,0.53
834.173,0.59
834.388,0.62
834.603,0.59
834.818,0.48
835.033,0.38
835.248,0.41
835.463,0.44
835.678,0.33
835.893,0.33
836.108,0.29
836.323,0.34
836.538,0.39
836.753,0.36
836.968,0.29
837.183,0.26
837.397,0.28
837.612,0.27
837.827,0.2
838.042,0.17
838.256,0.21
838.471,0.2
838.686,0.25
838.901,0.22
839.115,0.16
839.33,0.15
839.544,0.18
839.759,0.23
839.974,0.13
840.188,0.23
840.403,0.21
840.617,0.19
840.832,0.11
841.046,0.14
841.261,0.18
841.475,0.19
841.69,0.16
841.904,0.18
842.118,0.1
842.333,0.1
842.547,0.17
842.762,0.16
842.976,0.03
843.19,
843.404,0.02
843.619,0.12
843.833,0.17
844.047,0.2
844.261,0
844.476,0.11
844.69,0.04
844.904,0.1
845.118,0.23
845.332,0.29
845.546,0.12
845.76,0.13
845.974,0.15
846.188,0.21
846.402,0.13
846.616,0.19
846.83,0.22
847.044,0.23
847.258,0.13
847.472,0.24
847.686,0.26
847.9,0.16
848.114,0.17
848.328,0.2
848.542,0.16
848.755,0.24
848.969,0.16
849.183,0.25
849.397,0.25
849.611,0.26
849.824,0.25
850.038,0.36
850.252,0.32
850.465,0.37
850.679,0.34
850.893,0.39
851.106,0.43
851.32,0.5
851.533,0.51
851.747,0.59
851.961,0.62
852.174,0.65
852.388,0.61
852.601,0.69
852.814,0.65
853.028,0.69
853.241,0.78
853.455,0.75
853.668,0.65
853.881,0.52
854.095,0.51
854.308,0.47
854.521,0.52
854.735,0.57
854.948,0.5
855.161,0.4
855.375,0.33
855.588,0.28
855.801,0.36
856.014,0.33
856.227,0.34
856.44,0.36
856.654,0.25
856.867,0.34
857.08,0.26
857.293,0.2
857.506,0.21
857.719,0.17
857.932,0.29
858.145,0.27
858.358,0.41
858.571,0.37
858.784,0.42
858.997,0.38
859.21,0.25
859.422,0.16
859.635,0.24
859.848,0.3
860.061,0.34
860.274,0.2
860.487,0.14
860.699,0.1
860.912,0.08
861.125,0.18
861.338,0.14
861.55,0.14
861.763,0.19
861.976,0.17
862.188,0.25
862.401,0.2
862.613,0.35
862.826,0.31
863.039,0.3
863.251,0.32
863.464,0.33
863.676,0.45
863.889,0.56
864.101,0.56
864.314,0.5
864.526,0.41
864.738,0.47
864.951,0.5
865.163,0.52
865.376,0.42
865.588,0.49
865.8,0.68
866.013,0.66
866.225,0.75
866.437,0.81
866.649,0.77
866.862,0.85
867.074,0.78
867.286,0.76
867.498,0.7
867.71,0.87
867.922,0.9
868.134,0.86
868.347,1.04
868.559,0.97
868.771,1.1
868.983,1.1
869.195,1.04
869.407,1.07
869.619,1.21
869.831,1.34
870.043,1.28
870.255,1.01
870.467,1.08
870.678,0.9
870.89,0.9
871.102,0.74
871.314,0.56
871.526,0.56
871.738,0.67
871.949,0.73
872.161,0.62
872.373,0.62
872.585,0.66
872.796,0.63
873.008,0.58
873.22,0.5
873.431,0.52
873.643,0.66
873.854,0.63
874.066,0.41
874.278,0.34
874.489,0.16
874.701,0.38
874.912,0.34
875.124,0.43
875.335,0.41
875.547,0.51
875.758,0.47
875.97,0.6
876.181,0.61
876.392,0.85
876.604,0.64
876.815,0.61
877.026,0.45
877.238,0.41
877.449,0.37
877.66,0.47
877.871,0.5
878.083,0.37
878.294,0.38
878.505,0.44
878.716,0.46
878.927,0.53
879.139,0.3
879.35,0.07
879.561,0.09
879.772,0.43
879.983,0.81
880.194,1.22
880.405,1.29
880.616,1.14
880.827,1.11
881.038,1.38
881.249,1.43
881.46,1.67
881.671,1.72
881.882,2.16
882.093,2.32
882.303,2.21
882.514,2.18
882.725,2.29
882.936,2.41
883.147,2.25
883.357,2.49
883.568,2.74
883.779,2.89
883.99,2.84
884.2,2.09
884.411,1.98
884.622,1.7
884.832,1.17
885.043,1.18
885.254,0.95
885.464,0.8
885.675,0.6
885.885,0.66
886.096,0.47
886.306,0.04
886.517,
886.727,
886.938,
887.148,
887.358,
887.569,
887.779,
887.99,
888.2,0.07
888.41,0.06
888.621,0.15
888.831,0.24
889.041,0.35
889.251,0.47
889.462,0.41
889.672,0.26
889.882,0.16
890.092,0.19
890.302,
890.512,
890.722,
890.933,0.14
891.143,0.13
891.353,0.31
891.563,0.07
891.773,0.2
891.983,0.1
892.193,0.09
892.403,0.03
892.613,0.25
892.823,0.54
893.032,0.42
893.242,0.3
893.452,0.41
893.662,0.38
893.872,0.69
894.082,0.92
894.292,1.03
894.501,1.48
894.711,1.81
894.921,1.79
895.13,1.46
895.34,1.27
895.55,1.03
895.76,1.18
895.969,1.53
896.179,1.48
896.388,1.67
896.598,1.95
896.808,2
897.017,1.91
897.227,1.44
897.436,1.66
897.646,1.03
897.855,0.42
898.065,0.51
898.274,0.11
898.483,0.33
898.693,0.35
898.902,0.32
899.112,
899.321,0.58
899.53,0.72
899.74,0.85
899.949,1.32
900.158,1.51
900.367,1.13
900.577,1.27
900.786,1.3
900.995,0.82
901.204,0.99
901.413,0.89
901.622,1.07
901.832,0.93
902.041,1.69
902.25,2.58
902.459,2.71
902.668,2.59
902.877,2.64
903.086,2.75
903.295,2.3
903.504,2.59
903.713,2.21
903.922,2.14
904.131,1.9
904.34,1.73
904.548,1.34
904.757,1.24
904.966,1.52
905.175,2.24
905.384,2.41
905.592,2.34
905.801,2.42
906.01,2.05
906.219,1.8
906.427,2.09
906.636,1.4
906.845,1.79
907.053,1.7
907.262,2
907.471,2.04
907.679,2.93
907.888,2.97
908.096,3.03
908.305,3.01
908.513,2.87
908.722,3.22
908.93,3.06
909.139,3.17
909.347,3.63
909.556,3.01
909.764,3.08
909.973,1.86
910.181,1.66
910.389,1.56
910.598,1.98
910.806,1.15
911.014,1.61
911.223,0.66
911.431,1.97
911.639,1.25
911.847,0.62
912.055,
912.264,
912.472,
912.68,0.59
912.888,1.27
913.096,1.28
913.304,1.44
913.512,2.05
913.72,1.26
913.928,1.74
914.136,1.04
914.344,2.05
914.552,3.1
914.76,3.4
914.968,2.94
915.176,3.28
915.384,4.32
915.592,5.34
915.8,4.88
916.008,4.59
916.216,4.79
916.423,5.39
916.631,6.59
916.839,5.36
917.047,5.61
917.254,4.31
917.462,4.75
917.67,5.02
917.877,5.44
918.085,4.85
918.293,4.83
918.5,5.21
918.708,6.08
918.916,5.68
919.123,5.63
919.331,6
919.538,6.19
919.746,5.87
919.953,5.95
920.161,4.76
920.368,4.37
920.576,4.08
920.783,4.15
920.99,3.39
921.198,4.81
921.405,5.15
921.612,6.04
921.82,5.38
922.027,5.52
922.234,3.87
922.442,4.24
922.649,4.87
922.856,2.89
923.063,2.05
923.27,2.07
923.478,1.39
923.685,1.82
923.892,2.22
924.099,1.82
924.306,1.2
924.513,2.4
924.72,3.54
924.927,5.38
925.134,5.48
925.341,4.99
925.548,5.38
925.755,3.5
925.962,3.34
926.169,5.05
926.376,5.38
926.583,6.03
926.79,5
926.997,6.08
927.204,7.5
927.41,7.17
927.617,8.11
927.824,6.67
928.031,5.43
928.237,4.71
928.444,6.03
928.651,7.45
928.858,6.82
929.064,6.27
929.271,6.17
929.477,4.47
929.684,4.24
929.891,3.59
930.097,2.61
930.304,4.52
930.51,3.77
930.717,3.82
930.923,5.41
931.13,4.46
931.336,3.89
931.543,4.67
931.749,3.86
931.956,4.37
932.162,5.12
932.368,9.22
932.575,8.45
932.781,7.76
932.987,9.53
933.194,7.76
933.4,9.62
933.606,7.95
933.812,8.08
934.019,9.27
934.225,8.76
934.431,12.5
934.637,9.56
934.843,6.6
935.049,5.82
935.255,3.33
935.462,1.19
935.668,0.47
935.874,
936.08,
936.286,
936.492,1.87
936.698,0.52
936.904,
937.11,
937.316,
937.521,
937.727,
937.933,
938.139,
938.345,
938.551,4.73
938.756,4.5
938.962,3.12
939.168,8.83
939.374,8.15
939.579,7.69
939.785,12.85
939.991,14.89
940.196,13.56
940.402,18.15
940.608,20.26
940.813,16.04
941.019,14.06
941.224,19.07
941.43,21.45
941.635,27.55
941.841,27.52
942.046,27.54
942.252,32.23
942.457,18.72
942.663,20.57
942.868,28.89
943.074,17.11
943.279,14.15
943.484,24.08
943.69,12.09
943.895,11.53
944.1,23.83
944.306,15.97
944.511,21.39
944.716,21.58
944.921,31.55
945.126,22.64
945.332,27.87
945.537,23.77
945.742,48.47
945.947,18.25
946.152,18.29
946.357,14.52
946.562,13.72
946.767,23.55
946.973,22.19
947.178,19.44
947.383,22.76
947.588,23.95
947.792,25.56
947.997,24.18
948.202,38.19
948.407,44.37
948.612,21.46
948.817,19.49
949.022,16.4
949.227,19.98
949.431,20.61
949.636,6.79
949.841,20.15
950.046,19.86
950.251,10.11
950.455,10.22
950.66,15.27
950.865,44.96
951.069,23.09
951.274,33.88
951.479,24.94
951.683,31.9
951.888,48.54
952.092,128.31
952.297,24.5
952.501,27.53
952.706,21.97
952.91,67.98
953.115,35.1
953.319,40.96
953.524,39.86
953.728,37.08
953.933,38.08
954.137,39.16
954.341,32.15
954.546,22.88
954.75,33.5
954.954,41.99
955.159,31.41
955.363,30.81
955.567,18.96
955.771,11.81
955.976,14.95
956.18,29.23
956.384,11.28
956.588,27.64
956.792,41.26
956.996,40.54
957.201,19.06
957.405,39.19
957.609,50.84
957.813,35.61
958.017,35.99
958.221,31.85
958.425,48.1
958.629,158.45
958.833,38.16
959.037,28.04
959.24,19.4
959.444,22.47
959.648,25.66
959.852,65.9
960.056,27.64
960.26,21.39
960.464,27.35
960.667,55.39
960.871,18.39
961.075,15.31
961.279,11.55
961.482,2.1
961.686,7.86
961.89,1.7
962.093,12.03
962.297,10.28
962.501,22.1
962.704,17.1
962.908,34.3
963.111,24.08
963.315,21.98
963.518,51.71
963.722,28.65
963.925,101.84
964.129,29.99
964.332,29.88
964.536,38.9
964.739,69.66
964.942,45.77
965.146,54.44
965.349,55.98
965.553,64.79
965.756,83.57
965.959,38.59
966.162,63.08
966.366,33.3
966.569,61.81
966.772,84.65
966.975,32.84
967.179,30.34
967.382,
967.585,31.23
967.788,21.02
967.991,25.87
968.194,25.9
968.397,36.98
968.6,74.11
968.803,15.36
969.006,33.65
969.209,23.38
969.412,25.03
969.615,12.84
969.818,14.55
970.021,11.89
970.224,17.66
970.427,8.72
970.63,9.66
970.833,10.13
971.035,11.45
971.238,11.92
971.441,20.64
971.644,19.83
971.847,21.45
972.049,19.7
972.252,13.67
972.455,10.92
972.657,0.64
972.86,8.22
973.063,18.01
973.265,10.88
973.468,19.6
973.671,15.81
973.873,61.39
974.076,47.6
974.278,60.76
974.481,64.15
974.683,56.89
974.886,19.7
975.088,31.35
975.291,20.94
975.493,34.93
975.695,24.47
975.898,31.82
976.1,26.92
976.302,38.01
976.505,47.17
976.707,7.26
976.909,18.51
977.112,7.63
977.314,10.09
977.516,9.76
977.718,
977.921,
978.123,
978.325,
978.527,
978.729,
978.931,124.77
979.133,1.06
979.335,5.88
979.537,25.84
979.739,5.55
979.941,0.58
980.143,0.14
980.345,2.18
980.547,7.02
980.749,41.47
980.951,32.69
981.153,18.26
981.355,41.6
981.557,126.64
981.759,24.96
981.96,20.72
982.162,64.54
982.364,46.71
982.566,53.56
982.767,65.28
982.969,75.52
983.171,27.48
983.373,42.33
983.574,49.41
983.776,67.81
983.978,61.63
984.179,65.37
984.381,56.28
984.582,72.8
984.784,51.21
984.985,92.53
985.187,160.89
985.388,98.7
985.59,62.58
985.791,39.18
985.993,108.46
986.194,37.69
986.396,45.03
986.597,31.83
986.798,50
987,62.69
987.201,28.67
987.402,64.34
987.604,30.07
987.805,46.91
988.006,22.55
988.207,52.28
988.409,46.06
988.61,38.18
988.811,33.15
989.012,57.54
989.213,38.64
989.415,95.78
989.616,59.63
989.817,26.93
990.018,125.16
990.219,51.36
990.42,51.2
990.621,48.03
990.822,56.05
991.023,48.9
991.224,79.17
991.425,110.32
991.626,42.19
991.827,66.04
992.027,181.19
992.228,56.14
992.429,578.78
992.63,71.71
992.831,44.93
993.032,
993.232,69.71
993.433,76.04
993.634,59.62
993.835,60.99
994.035,53.5
994.236,40.45
994.437,122.99
994.637,52.11
994.838,127.66
995.038,49.73
995.239,32.94
995.44,22.65
995.64,49.87
995.841,38.69
996.041,36.19
996.242,25.74
996.442,30.46
996.643,51.98
996.843,7.77
997.043,11.12
997.244,20.25
997.444,6.74
997.645,4.26
997.845,4.93
998.045,15.98
998.245,2.45
998.446,2.92
998.646,11.4
998.846,18.2
999.046,20.74
999.247,13.64
999.447,18.56
999.647,25.2
999.847,7.34
1000.047,31.17
1000.247,2.88
1000.448,24.96
1000.648,9.54
1000.848,10.73
1001.048,27.8
1001.248,7.58
1001.448,23.86
1001.648,30.87
1001.848,78.85
1002.048,21.61
1002.248,34.86
1002.447,51.43
1002.647,42.14
1002.847,38.06
1003.047,93.69
1003.247,31.32
1003.447,20.26
1003.647,15.09
1003.846,17.23
1004.046,15.18
1004.246,17.89
1004.446,7.68
1004.645,7.63
1004.845,7.92
1005.045,27.35
1005.244,57.93
1005.444,129.38
1005.643,33.95
1005.843,14.48
1006.043,14.8
1006.242,2.96
1006.442,
1006.641,
1006.841,
1007.04,
1007.24,0.62
1007.439,6.48
1007.639,3.84
1007.838,9.44
1008.037,23.58
1008.237,12.07
1008.436,42
1008.635,42.35
1008.835,97.35
1009.034,86.4
1009.233,29.65
1009.432,62.85
1009.632,38.45
1009.831,35.01
1010.03,33.9
1010.229,32.57
1010.428,990.11
1010.628,31.58
1010.827,25.66
1011.026,52.28
1011.225,39.34
1011.424,28.99
1011.623,43.26
1011.822,20.37
1012.021,25.71
1012.22,22.89
1012.419,34.96
1012.618,5.78
1012.817,57.32
1013.016,11.88
1013.215,25.15
1013.414,20.09
1013.612,8.31
1013.811,
1014.01,2.23
1014.209,1.74
1014.408,7.88
1014.606,7.02
1014.805,24.88
1015.004,34.71
1015.203,37.79
1015.401,24.34
1015.6,22.65
1015.799,27.6
1015.997,25.62
1016.196,20.37
1016.395,
1016.593,2.05
1016.792,10.75
1016.99,11.59
1017.189,9.2
1017.387,8.98
1017.586,17.65
1017.784,78.03
1017.983,163.4
1018.181,43.54
1018.379,71.48
1018.578,31.68
1018.776,27.09
1018.975,19.87
1019.173,32.98
1019.371,33.32
1019.57,58.55
1019.768,26.16
1019.966,55.17
1020.164,29.18
1020.363,34.08
1020.561,2096.93
1020.759,32.83
1020.957,218.12
1021.155,41.57
1021.353,31.57
1021.551,43.95
1021.75,26
1021.948,24.34
1022.146,20.58
1022.344,24.54
1022.542,67.51
1022.74,
1022.938,42.16
1023.136,78.74
1023.334,31.1
1023.532,49.36
1023.729,14.6
1023.927,563.05
1024.125,3.47
1024.323,7.22
1024.521,
1024.719,
1024.917,
1025.114,
1025.312,
1025.51,
1025.707,
1025.905,13.89
1026.103,6.03
1026.301,3.29
1026.498,1.7
1026.696,2.48
1026.893,
1027.091,7.3
1027.289,11.98
1027.486,13.5
1027.684,20.29
1027.881,48.97
1028.079,13.48
1028.276,35.66
1028.474,22.72
1028.671,11.27
1028.868,20.59
1029.066,14.53
1029.263,24.03
1029.461,21.81
1029.658,14.08
1029.855,9.65
1030.053,11.39
1030.25,36.36
1030.447,15.66
1030.644,28.62
1030.842,12.77
1031.039,18.42
1031.236,34.6
1031.433,10.77
1031.63,21.94
1031.827,24.68
1032.025,18.23
1032.222,21.86
1032.419,33.43
1032.616,14.27
1032.813,10.11
1033.01,16.15
1033.207,9.35
1033.404,
1033.601,0.63
1033.798,6.16
1033.995,11.34
1034.192,7.09
1034.389,14.71
1034.585,14.42
1034.782,20.97
1034.979,10.06
1035.176,22.37
1035.373,21.16
1035.57,10.29
1035.766,7.52
1035.963,15.13
1036.16,4.12
1036.356,8.7
